voltage,wavelength
0,0.00000000 
0.1,-0.00014367 
0.2,-0.00028960 
0.3,-0.00043900 
0.4,-0.00060156 
0.5,-0.00075991 
0.6,-0.00091169 
0.7,-0.00106460 
0.8,-0.00122071 
0.9,-0.00138105 
1,-0.00154291 
1.1,-0.00170261 
1.2,-0.00186568 
1.3,-0.00202485 
1.4,-0.00217514 
1.5,-0.00232329 
1.6,-0.00248294 
1.7,-0.00264326 
1.8,-0.00280368 
1.9,-0.00296797 
2,-0.00313895 
2.1,-0.00331456 
2.2,-0.00348140 
2.3,-0.00364951 
2.4,-0.00382004 
2.5,-0.00400255 
2.6,-0.00418683 
2.7,-0.00437200 
2.8,-0.00455768 
2.9,-0.00473975 
3,-0.00490926 
3.1,-0.00509222 
3.2,-0.00528016 
3.3,-0.00547409 
3.4,-0.00566812 
3.5,-0.00586462 
3.6,-0.00606014 
3.7,-0.00624453 
3.8,-0.00642376 
3.9,-0.00661107 
4,-0.00680334 
4.1,-0.00700675 
4.2,-0.00720332 
4.3,-0.00740709 
4.4,-0.00759863 
4.5,-0.00778804 
4.6,-0.00798543 
4.7,-0.00819294 
4.8,-0.00840450 
4.9,-0.00861512 
5,-0.00883073 
5.1,-0.00903042 
5.2,-0.00922217 
5.3,-0.00941684 
5.4,-0.00962243 
5.5,-0.00983406 
5.6,-0.01005396 
5.7,-0.01027084 
5.8,-0.01046876 
5.9,-0.01065981 
6,-0.01085983 
6.1,-0.01106858 
6.2,-0.01127848 
6.3,-0.01149343 
6.4,-0.01170347 
6.5,-0.01189747 
6.6,-0.01208662 
6.7,-0.01227680 
6.8,-0.01247684 
6.9,-0.01267450 
7,-0.01288045 
7.1,-0.01307937 
7.2,-0.01326670 
7.3,-0.01344504 
7.4,-0.01363453 
7.5,-0.01382281 
7.6,-0.01400880 
7.7,-0.01419978 
7.8,-0.01438886 
7.9,-0.01457429 
8,-0.01476373 
8.1,-0.01495524 
8.2,-0.01514739 
8.3,-0.01533524 
8.4,-0.01552898 
8.5,-0.01572419 
8.6,-0.01591462 
8.7,-0.01610724 
8.8,-0.01629863 
8.9,-0.01648265 
9,-0.01666391 
9.1,-0.01684881 
9.2,-0.01703914 
9.3,-0.01723175 
9.4,-0.01742509 
9.5,-0.01762025 
9.6,-0.01780804 
9.7,-0.01799252 
9.8,-0.01817429 
9.9,-0.01837545 
10,-0.01856634 
10.1,-0.01876425 
10.2,-0.01894783 
10.3,-0.01912319 
10.4,-0.01929660 
10.5,-0.01947145 
10.6,-0.01966211 
10.7,-0.01986057 
10.8,-0.02006288 
10.9,-0.02024807 
11,-0.02043122 
11.1,-0.02061580 
11.2,-0.02080627 
11.3,-0.02100666 
11.4,-0.02121686 
11.5,-0.02140917 
11.6,-0.02159473 
11.7,-0.02177671 
11.8,-0.02196957 
11.9,-0.02216629 
12,-0.02240158 
12.1,-0.02260683 
12.2,-0.02279522 
12.3,-0.02296803 
12.4,-0.02316188 
12.5,-0.02336160 
12.6,-0.02356806 
12.7,-0.02378843 
12.8,-0.02399211 
12.9,-0.02418207 
13,-0.02438721 
13.1,-0.02459753 
13.2,-0.02482184 
13.3,-0.02504696 
13.4,-0.02526025 
13.5,-0.02545781 
13.6,-0.02566630 
13.7,-0.02588481 
13.8,-0.02611717 
13.9,-0.02635463 
14,-0.02659107 
14.1,-0.02680586 
14.2,-0.02702850 
14.3,-0.02725686 
14.4,-0.02749324 
14.5,-0.02772884 
14.6,-0.02795037 
14.7,-0.02814088 
14.8,-0.02834147 
14.9,-0.02854891 
15,-0.02877537 
15.1,-0.02900335 
15.2,-0.02922512 
15.3,-0.02942681 
15.4,-0.02962719 
15.5,-0.02983658 
15.6,-0.03006380 
15.7,-0.03028917 
15.8,-0.03049401 
15.9,-0.03067753 
16,-0.03086986 
16.1,-0.03110122 
16.2,-0.03134065 
16.3,-0.03157839 
16.4,-0.03179748 
16.5,-0.03199847 
16.6,-0.03220407 
16.7,-0.03242470 
16.8,-0.03266232 
16.9,-0.03289824 
17,-0.03311835 
17.1,-0.03331565 
17.2,-0.03352248 
17.3,-0.03375230 
17.4,-0.03399122 
17.5,-0.03422639 
17.6,-0.03444857 
17.7,-0.03466470 
17.8,-0.03487122 
17.9,-0.03509763 
18,-0.03532703 
18.1,-0.03556380 
18.2,-0.03578368 
18.3,-0.03599157 
18.4,-0.03620212 
18.5,-0.03643232 
18.6,-0.03667965 
18.7,-0.03692437 
18.8,-0.03715525 
18.9,-0.03738794 
19,-0.03761817 
19.1,-0.03786109 
19.2,-0.03810688 
19.3,-0.03834773 
19.4,-0.03856780 
19.5,-0.03878271 
19.6,-0.03900403 
19.7,-0.03923540 
19.8,-0.03947684 
19.9,-0.03971471 
20,-0.03994580 
20.1,-0.04016478 
20.2,-0.04038894 
20.3,-0.04062209 
20.4,-0.04085573 
20.5,-0.04108268 
20.6,-0.04130789 
20.7,-0.04152175 
20.8,-0.04174107 
20.9,-0.04197727 
21,-0.04222181 
21.1,-0.04246289 
21.2,-0.04269824 
21.3,-0.04292711 
21.4,-0.04315537 
21.5,-0.04340466 
21.6,-0.04365550 
21.7,-0.04390075 
21.8,-0.04413398 
21.9,-0.04435716 
22,-0.04458821 
22.1,-0.04484798 
22.2,-0.04509378 
22.3,-0.04534339 
22.4,-0.04557780 
22.5,-0.04580157 
22.6,-0.04604406 
22.7,-0.04628768 
22.8,-0.04654281 
22.9,-0.04678939 
23,-0.04702081 
23.1,-0.04724170 
23.2,-0.04748937 
23.3,-0.04774827 
23.4,-0.04800066 
23.5,-0.04824321 
23.6,-0.04846555 
23.7,-0.04869635 
23.8,-0.04895273 
23.9,-0.04920845 
24,-0.04946380 
24.1,-0.04968925 
24.2,-0.04990552 
24.3,-0.05013321 
24.4,-0.05038581 
24.5,-0.05063981 
24.6,-0.05088130 
24.7,-0.05111494 
24.8,-0.05134609 
24.9,-0.05162639 
25,-0.05185571 
25.1,-0.05203950 
25.2,-0.05223486 
25.3,-0.05244407 
25.4,-0.05265966 
25.5,-0.05289324 
25.6,-0.05313899 
25.7,-0.05338439 
25.8,-0.05360894 
25.9,-0.05381635 
26,-0.05402811 
26.1,-0.05426568 
26.2,-0.05450440 
26.3,-0.05473563 
26.4,-0.05494599 
26.5,-0.05514699 
26.6,-0.05535260 
26.7,-0.05558921 
26.8,-0.05584109 
26.9,-0.05607871 
27,-0.05629503 
27.1,-0.05651196 
27.2,-0.05673627 
27.3,-0.05698953 
27.4,-0.05724222 
27.5,-0.05747130 
27.6,-0.05769129 
27.7,-0.05790284 
27.8,-0.05813842 
27.9,-0.05841404 
28,-0.05867980 
28.1,-0.05892358 
28.2,-0.05915939 
28.3,-0.05939012 
28.4,-0.05966327 
28.5,-0.05992257 
28.6,-0.06016132 
28.7,-0.06038006 
28.8,-0.06058970 
28.9,-0.06081896 
29,-0.06107914 
29.1,-0.06133570 
29.2,-0.06157353 
29.3,-0.06180714 
29.4,-0.06204358 
29.5,-0.06229480 
29.6,-0.06256001 
29.7,-0.06280547 
29.8,-0.06304322 
29.9,-0.06326225 
30,-0.06349911 
30.1,-0.06375776 
30.2,-0.06402443 
30.3,-0.06428539 
30.4,-0.06453252 
30.5,-0.06478089 
30.6,-0.06503571 
30.7,-0.06530350 
30.8,-0.06556212 
30.9,-0.06581625 
31,-0.06605183 
31.1,-0.06629504 
31.2,-0.06655198 
31.3,-0.06682383 
31.4,-0.06708491 
31.5,-0.06734468 
31.6,-0.06759403 
31.7,-0.06785580 
31.8,-0.06812229 
31.9,-0.06839073 
32,-0.06864768 
32.1,-0.06888671 
32.2,-0.06913471 
32.3,-0.06939737 
32.4,-0.06966216 
32.5,-0.06992022 
32.6,-0.07016957 
32.7,-0.07040883 
32.8,-0.07066060 
32.9,-0.07091029 
33,-0.07115580 
33.1,-0.07139268 
33.2,-0.07162958 
33.3,-0.07185740 
33.4,-0.07210307 
33.5,-0.07233278 
33.6,-0.07257278 
33.7,-0.07280576 
33.8,-0.07304075 
33.9,-0.07326852 
34,-0.07350934 
34.1,-0.07376104 
34.2,-0.07400883 
34.3,-0.07425476 
34.4,-0.07448168 
34.5,-0.07470863 
34.6,-0.07494770 
34.7,-0.07520086 
34.8,-0.07545116 
34.9,-0.07569552 
35,-0.07592878 
35.1,-0.07618812 
35.2,-0.07644511 
35.3,-0.07670429 
35.4,-0.07695140 
35.5,-0.07718437 
35.6,-0.07741540 
35.7,-0.07766534 
35.8,-0.07792524 
35.9,-0.07818225 
36,-0.07843122 
36.1,-0.07867511 
36.2,-0.07893999 
36.3,-0.07921784 
36.4,-0.07949855 
36.5,-0.07976332 
36.6,-0.08001088 
36.7,-0.08026647 
36.8,-0.08053514 
36.9,-0.08080788 
37,-0.08107243 
37.1,-0.08132517 
37.2,-0.08158107 
37.3,-0.08184189 
37.4,-0.08211878 
37.5,-0.08238216 
37.6,-0.08263655 
37.7,-0.08287494 
37.8,-0.08311862 
37.9,-0.08336347 
38,-0.08361604 
38.1,-0.08385145 
38.2,-0.08409119 
38.3,-0.08432803 
38.4,-0.08458399 
38.5,-0.08485075 
38.6,-0.08510624 
38.7,-0.08535866 
38.8,-0.08560352 
38.9,-0.08585478 
39,-0.08610689 
39.1,-0.08635989 
39.2,-0.08660360 
39.3,-0.08684981 
39.4,-0.08709622 
39.5,-0.08735683 
39.6,-0.08761380 
39.7,-0.08787847 
39.8,-0.08813140 
39.9,-0.08838291 
40,-0.08863834 
40.1,-0.08889555 
40.2,-0.08915334 
40.3,-0.08941229 
40.4,-0.08966545 
40.5,-0.08993093 
40.6,-0.09019529 
40.7,-0.09047106 
40.8,-0.09074368 
40.9,-0.09100243 
41,-0.09127247 
41.1,-0.09154170 
41.2,-0.09181630 
41.3,-0.09208294 
41.4,-0.09234363 
41.5,-0.09260571 
41.6,-0.09287022 
41.7,-0.09313604 
41.8,-0.09339466 
41.9,-0.09363812 
42,-0.09388783 
42.1,-0.09413684 
42.2,-0.09439848 
42.3,-0.09464975 
42.4,-0.09490209 
42.5,-0.09514571 
42.6,-0.09541271 
42.7,-0.09568062 
42.8,-0.09594034 
42.9,-0.09617789 
43,-0.09642457 
43.1,-0.09667670 
43.2,-0.09694262 
43.3,-0.09720124 
43.4,-0.09745143 
43.5,-0.09769898 
43.6,-0.09794098 
43.7,-0.09820996 
43.8,-0.09847204 
43.9,-0.09873112 
44,-0.09897371 
44.1,-0.09921311 
44.2,-0.09947340 
44.3,-0.09973521 
44.4,-0.09999106 
44.5,-0.10024176 
44.6,-0.10047809 
44.7,-0.10074532 
44.8,-0.10102127 
44.9,-0.10129898 
45,-0.10156768 
45.1,-0.10181906 
45.2,-0.10209463 
45.3,-0.10238368 
45.4,-0.10266943 
45.5,-0.10293824 
45.6,-0.10319837 
45.7,-0.10346212 
45.8,-0.10374424 
45.9,-0.10402384 
46,-0.10429427 
46.1,-0.10454139 
46.2,-0.10480389 
46.3,-0.10508525 
46.4,-0.10539280 
46.5,-0.10567335 
46.6,-0.10593821 
46.7,-0.10620335 
46.8,-0.10647448 
46.9,-0.10674203 
47,-0.10702562 
47.1,-0.10727140 
47.2,-0.10752235 
47.3,-0.10780968 
47.4,-0.10808548 
47.5,-0.10836417 
47.6,-0.10860606 
47.7,-0.10885589 
47.8,-0.10912501 
47.9,-0.10940188 
48,-0.10966353 
48.1,-0.10989047 
48.2,-0.11010435 
48.3,-0.11036343 
48.4,-0.11063063 
48.5,-0.11089565 
48.6,-0.11113175 
48.7,-0.11135293 
48.8,-0.11161401 
48.9,-0.11189812 
49,-0.11217119 
49.1,-0.11241124 
49.2,-0.11263211 
49.3,-0.11287614 
49.4,-0.11316340 
49.5,-0.11344196 
49.6,-0.11369934 
49.7,-0.11393252 
49.8,-0.11419352 
49.9,-0.11448365 
50,-0.11476732 
50.1,-0.11502355 
50.2,-0.11526516 
50.3,-0.11550483 
50.4,-0.11577893 
50.5,-0.11605357 
50.6,-0.11631137 
50.7,-0.11655691 
50.8,-0.11681629 
50.9,-0.11709994 
51,-0.11739843 
51.1,-0.11767101 
51.2,-0.11792827 
51.3,-0.11819721 
51.4,-0.11847370 
51.5,-0.11875824 
51.6,-0.11902086 
51.7,-0.11926907 
51.8,-0.11952599 
51.9,-0.11980040 
52,-0.12007617 
52.1,-0.12034376 
52.2,-0.12059814 
52.3,-0.12085707 
52.4,-0.12112124 
52.5,-0.12139509 
52.6,-0.12165301 
52.7,-0.12190673 
52.8,-0.12217109 
52.9,-0.12243366 
53,-0.12272175 
53.1,-0.12299201 
53.2,-0.12326171 
53.3,-0.12353216 
53.4,-0.12381291 
53.5,-0.12411116 
53.6,-0.12440235 
53.7,-0.12467239 
53.8,-0.12496039 
53.9,-0.12525057 
54,-0.12555894 
54.1,-0.12584750 
54.2,-0.12611966 
54.3,-0.12639876 
54.4,-0.12668912 
54.5,-0.12698455 
54.6,-0.12727278 
54.7,-0.12755696 
54.8,-0.12784399 
54.9,-0.12814142 
55,-0.12843968 
55.1,-0.12873786 
55.2,-0.12901593 
55.3,-0.12930209 
55.4,-0.12959755 
55.5,-0.12989388 
55.6,-0.13017707 
55.7,-0.13045125 
55.8,-0.13072355 
55.9,-0.13101127 
56,-0.13129665 
56.1,-0.13156481 
56.2,-0.13183886 
56.3,-0.13211530 
56.4,-0.13237086 
56.5,-0.13263048 
56.6,-0.13289391 
56.7,-0.13315027 
56.8,-0.13339662 
56.9,-0.13364632 
57,-0.13390803 
57.1,-0.13417360 
57.2,-0.13443693 
57.3,-0.13468943 
57.4,-0.13493788 
57.5,-0.13518958 
57.6,-0.13546119 
57.7,-0.13571335 
57.8,-0.13596062 
57.9,-0.13619303 
58,-0.13645248 
58.1,-0.13671773 
58.2,-0.13698183 
58.3,-0.13722665 
58.4,-0.13745891 
58.5,-0.13770424 
58.6,-0.13796637 
58.7,-0.13821296 
58.8,-0.13844855 
58.9,-0.13866942 
59,-0.13890950 
59.1,-0.13918732 
59.2,-0.13945378 
59.3,-0.13969665 
59.4,-0.13993391 
59.5,-0.14017701 
59.6,-0.14044866 
59.7,-0.14071725 
59.8,-0.14096598 
59.9,-0.14121086 
60,-0.14145776 
60.1,-0.14173086 
60.2,-0.14199896 
60.3,-0.14223994 
60.4,-0.14249170 
60.5,-0.14273809 
60.6,-0.14299558 
60.7,-0.14327362 
60.8,-0.14354158 
60.9,-0.14380337 
61,-0.14407157 
61.1,-0.14435429 
61.2,-0.14464619 
61.3,-0.14493517 
61.4,-0.14520478 
61.5,-0.14547898 
61.6,-0.14576630 
61.7,-0.14607412 
61.8,-0.14637291 
61.9,-0.14665248 
62,-0.14693342 
62.1,-0.14722876 
62.2,-0.14752988 
62.3,-0.14781181 
62.4,-0.14807129 
62.5,-0.14831939 
62.6,-0.14859839 
62.7,-0.14888609 
62.8,-0.14915901 
62.9,-0.14941166 
63,-0.14966589 
63.1,-0.14992035 
63.2,-0.15017929 
63.3,-0.15044357 
63.4,-0.15071022 
63.5,-0.15099462 
63.6,-0.15127601 
63.7,-0.15154458 
63.8,-0.15179889 
63.9,-0.15205899 
64,-0.15233976 
64.1,-0.15261545 
64.2,-0.15288662 
64.3,-0.15315225 
64.4,-0.15342170 
64.5,-0.15370239 
64.6,-0.15398801 
64.7,-0.15426101 
64.8,-0.15452184 
64.9,-0.15478439 
65,-0.15507032 
65.1,-0.15535006 
65.2,-0.15562139 
65.3,-0.15589306 
65.4,-0.15616816 
65.5,-0.15645952 
65.6,-0.15676283 
65.7,-0.15705293 
65.8,-0.15732739 
65.9,-0.15759750 
66,-0.15788884 
66.1,-0.15816837 
66.2,-0.15844481 
66.3,-0.15869580 
66.4,-0.15895747 
66.5,-0.15924612 
66.6,-0.15953029 
66.7,-0.15981458 
66.8,-0.16007391 
66.9,-0.16033566 
67,-0.16061107 
67.1,-0.16089929 
67.2,-0.16117237 
67.3,-0.16142562 
67.4,-0.16168729 
67.5,-0.16197607 
67.6,-0.16227412 
67.7,-0.16256260 
67.8,-0.16281993 
67.9,-0.16308568 
68,-0.16336935 
68.1,-0.16366760 
68.2,-0.16394412 
68.3,-0.16420443 
68.4,-0.16448047 
68.5,-0.16477925 
68.6,-0.16507081 
68.7,-0.16534545 
68.8,-0.16560606 
68.9,-0.16587245 
69,-0.16616586 
69.1,-0.16645052 
69.2,-0.16674032 
69.3,-0.16700094 
69.4,-0.16728471 
69.5,-0.16757243 
69.6,-0.16784788 
69.7,-0.16811232 
69.8,-0.16836193 
69.9,-0.16863073 
70,-0.16892635 
70.1,-0.16919465 
70.2,-0.16946622 
70.3,-0.16972265 
70.4,-0.17000712 
70.5,-0.17028855 
70.6,-0.17056662 
70.7,-0.17082407 
70.8,-0.17107758 
70.9,-0.17135219 
71,-0.17163391 
71.1,-0.17190521 
71.2,-0.17215411 
71.3,-0.17240671 
71.4,-0.17267545 
71.5,-0.17296327 
71.6,-0.17322148 
71.7,-0.17348699 
71.8,-0.17374025 
71.9,-0.17398994 
72,-0.17423462 
72.1,-0.17448701 
72.2,-0.17471845 
72.3,-0.17495799 
72.4,-0.17522234 
72.5,-0.17550119 
72.6,-0.17576304 
72.7,-0.17602027 
72.8,-0.17626739 
72.9,-0.17653766 
73,-0.17682230 
73.1,-0.17708050 
73.2,-0.17733380 
73.3,-0.17758078 
73.4,-0.17786494 
73.5,-0.17816175 
73.6,-0.17844660 
73.7,-0.17871686 
73.8,-0.17897329 
73.9,-0.17925348 
74,-0.17953642 
74.1,-0.17980240 
74.2,-0.18004540 
74.3,-0.18028389 
74.4,-0.18055929 
74.5,-0.18084594 
74.6,-0.18113198 
74.7,-0.18139178 
74.8,-0.18164957 
74.9,-0.18192850 
75,-0.18221430 
75.1,-0.18248303 
75.2,-0.18274016 
75.3,-0.18299570 
75.4,-0.18329532 
75.5,-0.18358825 
75.6,-0.18388566 
75.7,-0.18414671 
75.8,-0.18440365 
75.9,-0.18469676 
76,-0.18498827 
76.1,-0.18527329 
76.2,-0.18552362 
76.3,-0.18579563 
76.4,-0.18610221 
76.5,-0.18639950 
76.6,-0.18669121 
76.7,-0.18695381 
76.8,-0.18724598 
76.9,-0.18754750 
77,-0.18782650 
77.1,-0.18810978 
77.2,-0.18838122 
77.3,-0.18866011 
77.4,-0.18894837 
77.5,-0.18923843 
77.6,-0.18952507 
77.7,-0.18979568 
77.8,-0.19007345 
77.9,-0.19032952 
78,-0.19059127 
78.1,-0.19085370 
78.2,-0.19109780 
78.3,-0.19135648 
78.4,-0.19161734 
78.5,-0.19188681 
78.6,-0.19214158 
78.7,-0.19240119 
78.8,-0.19266173 
78.9,-0.19290088 
79,-0.19314096 
79.1,-0.19336462 
79.2,-0.19360324 
79.3,-0.19385494 
79.4,-0.19412745 
79.5,-0.19439529 
79.6,-0.19465035 
79.7,-0.19489914 
79.8,-0.19515891 
79.9,-0.19544478 
80,-0.19572634 
80.1,-0.19599291 
80.2,-0.19623260 
80.3,-0.19648268 
80.4,-0.19676652 
80.5,-0.19703889 
80.6,-0.19728776 
80.7,-0.19753750 
80.8,-0.19781139 
80.9,-0.19812606 
81,-0.19841966 
81.1,-0.19867998 
81.2,-0.19894334 
81.3,-0.19921883 
81.4,-0.19954434 
81.5,-0.19981516 
81.6,-0.20006163 
81.7,-0.20032173 
81.8,-0.20061021 
81.9,-0.20091870 
82,-0.20120588 
82.1,-0.20145699 
82.2,-0.20170203 
82.3,-0.20196919 
82.4,-0.20227030 
82.5,-0.20252606 
82.6,-0.20275827 
82.7,-0.20300116 
82.8,-0.20327637 
82.9,-0.20357571 
83,-0.20384398 
83.1,-0.20408863 
83.2,-0.20432966 
83.3,-0.20459511 
83.4,-0.20488348 
83.5,-0.20515003 
83.6,-0.20538757 
83.7,-0.20562850 
83.8,-0.20590488 
83.9,-0.20620293 
84,-0.20648514 
84.1,-0.20672893 
84.2,-0.20696894 
84.3,-0.20724365 
84.4,-0.20753258 
84.5,-0.20780686 
84.6,-0.20804735 
84.7,-0.20829503 
84.8,-0.20858557 
84.9,-0.20887798 
85,-0.20916917 
85.1,-0.20940296 
85.2,-0.20968470 
85.3,-0.20997309 
85.4,-0.21027921 
85.5,-0.21056817 
85.6,-0.21082234 
85.7,-0.21108265 
85.8,-0.21137776 
85.9,-0.21167783 
86,-0.21194893 
86.1,-0.21219027 
86.2,-0.21245373 
86.3,-0.21272578 
86.4,-0.21301353 
86.5,-0.21326503 
86.6,-0.21350389 
86.7,-0.21375483 
86.8,-0.21404058 
86.9,-0.21431134 
87,-0.21455291 
87.1,-0.21479924 
87.2,-0.21505745 
87.3,-0.21533745 
87.4,-0.21561737 
87.5,-0.21586588 
87.6,-0.21610709 
87.7,-0.21637230 
87.8,-0.21665919 
87.9,-0.21692322 
88,-0.21715955 
88.1,-0.21740011 
88.2,-0.21766632 
88.3,-0.21794921 
88.4,-0.21821055 
88.5,-0.21845450 
88.6,-0.21870124 
88.7,-0.21897488 
88.8,-0.21927143 
88.9,-0.21954373 
89,-0.21977760 
89.1,-0.22002506 
89.2,-0.22030170 
89.3,-0.22060073 
89.4,-0.22088219 
89.5,-0.22114242 
89.6,-0.22141681 
89.7,-0.22171850 
89.8,-0.22203524 
89.9,-0.22232765 
90,-0.22259125 
90.1,-0.22285248 
90.2,-0.22314304 
90.3,-0.22344375 
90.4,-0.22372404 
90.5,-0.22398283 
90.6,-0.22424321 
90.7,-0.22453071 
90.8,-0.22484630 
90.9,-0.22513530 
91,-0.22540750 
91.1,-0.22566334 
91.2,-0.22594363 
91.3,-0.22623196 
91.4,-0.22650009 
91.5,-0.22674825 
91.6,-0.22699139 
91.7,-0.22726688 
91.8,-0.22755442 
91.9,-0.22783243 
92,-0.22807950 
92.1,-0.22832122 
92.2,-0.22858342 
92.3,-0.22884507 
92.4,-0.22909017 
92.5,-0.22930352 
92.6,-0.22953062 
92.7,-0.22978852 
92.8,-0.23005665 
92.9,-0.23031911 
93,-0.23055375 
93.1,-0.23078103 
93.2,-0.23105411 
93.3,-0.23133160 
93.4,-0.23159535 
93.5,-0.23182812 
93.6,-0.23205362 
93.7,-0.23232486 
93.8,-0.23261632 
93.9,-0.23290532 
94,-0.23315816 
94.1,-0.23340489 
94.2,-0.23368806 
94.3,-0.23399648 
94.4,-0.23427188 
94.5,-0.23452327 
94.6,-0.23475840 
94.7,-0.23503530 
94.8,-0.23533711 
94.9,-0.23563304 
95,-0.23590111 
95.1,-0.23615062 
95.2,-0.23644593 
95.3,-0.23674327 
95.4,-0.23703557 
95.5,-0.23729501 
95.6,-0.23754719 
95.7,-0.23782635 
95.8,-0.23811937 
95.9,-0.23840740 
96,-0.23865970 
96.1,-0.23890481 
96.2,-0.23915930 
96.3,-0.23941906 
96.4,-0.23967319 
96.5,-0.23990553 
96.6,-0.24013247 
96.7,-0.24037593 
96.8,-0.24063491 
96.9,-0.24088945 
97,-0.24112745 
97.1,-0.24135393 
97.2,-0.24159906 
97.3,-0.24185383 
97.4,-0.24211935 
97.5,-0.24236370 
97.6,-0.24260373 
97.7,-0.24285235 
97.8,-0.24314068 
97.9,-0.24343375 
98,-0.24370901 
98.1,-0.24398675 
98.2,-0.24427081 
98.3,-0.24457462 
98.4,-0.24488071 
98.5,-0.24516096 
98.6,-0.24542453 
98.7,-0.24570280 
98.8,-0.24602137 
98.9,-0.24634950 
99,-0.24665583 
99.1,-0.24694445 
99.2,-0.24726363 
99.3,-0.24761273 
99.4,-0.24794304 
99.5,-0.24824658 
99.6,-0.24854376 
99.7,-0.24886265 
99.8,-0.24919576 
99.9,-0.24951534 
100,-0.24980384 
100.1,-0.25008811 
100.2,-0.25038680 
100.3,-0.25068365 
100.4,-0.25096003 
100.5,-0.25121455 
100.6,-0.25146362 
100.7,-0.25172140 
100.8,-0.25197811 
100.9,-0.25221568 
101,-0.25243555 
101.1,-0.25265868 
101.2,-0.25290468 
101.3,-0.25315157 
101.4,-0.25338303 
101.5,-0.25360083 
101.6,-0.25382612 
101.7,-0.25406294 
101.8,-0.25430768 
101.9,-0.25453298 
102,-0.25474175 
102.1,-0.25495676 
102.2,-0.25519137 
102.3,-0.25544117 
102.4,-0.25568343 
102.5,-0.25590499 
102.6,-0.25612647 
102.7,-0.25636111 
102.8,-0.25659880 
102.9,-0.25682321 
103,-0.25704694 
103.1,-0.25726850 
103.2,-0.25751434 
103.3,-0.25776925 
103.4,-0.25800117 
103.5,-0.25823378 
103.6,-0.25847329 
103.7,-0.25872611 
103.8,-0.25899322 
103.9,-0.25924621 
104,-0.25948496 
104.1,-0.25975062 
104.2,-0.26002765 
104.3,-0.26031858 
104.4,-0.26059299 
104.5,-0.26084825 
104.6,-0.26110863 
104.7,-0.26138257 
104.8,-0.26167612 
104.9,-0.26197522 
105,-0.26225424 
105.1,-0.26255753 
105.2,-0.26286935 
105.3,-0.26320003 
105.4,-0.26353235 
105.5,-0.26388853 
105.6,-0.26422289 
105.7,-0.26454160 
105.8,-0.26487921 
105.9,-0.26524724 
106,-0.26558124 
106.1,-0.26589573 
106.2,-0.26618960 
106.3,-0.26649370 
106.4,-0.26679525 
106.5,-0.26709425 
106.6,-0.26737771 
106.7,-0.26763765 
106.8,-0.26788863 
106.9,-0.26814591 
107,-0.26839704 
107.1,-0.26863632 
107.2,-0.26885768 
107.3,-0.26910811 
107.4,-0.26939106 
107.5,-0.26966671 
107.6,-0.26992145 
107.7,-0.27015053 
107.8,-0.27041493 
107.9,-0.27071499 
108,-0.27100011 
108.1,-0.27125117 
108.2,-0.27147807 
108.3,-0.27173430 
108.4,-0.27202630 
108.5,-0.27231919 
108.6,-0.27258153 
108.7,-0.27282284 
108.8,-0.27308307 
108.9,-0.27338107 
109,-0.27366837 
109.1,-0.27392427 
109.2,-0.27415511 
109.3,-0.27439591 
109.4,-0.27467847 
109.5,-0.27497178 
109.6,-0.27523812 
109.7,-0.27548252 
109.8,-0.27573676 
109.9,-0.27604750 
110,-0.27635303 
110.1,-0.27663553 
110.2,-0.27687911 
110.3,-0.27712960 
110.4,-0.27742332 
110.5,-0.27771932 
110.6,-0.27799122 
110.7,-0.27824709 
110.8,-0.27849678 
110.9,-0.27878675 
111,-0.27908012 
111.1,-0.27935637 
111.2,-0.27960527 
111.3,-0.27984194 
111.4,-0.28011191 
111.5,-0.28039117 
111.6,-0.28066642 
111.7,-0.28092143 
111.8,-0.28116527 
111.9,-0.28144234 
112,-0.28173271 
112.1,-0.28201327 
112.2,-0.28227747 
112.3,-0.28252230 
112.4,-0.28279221 
112.5,-0.28307543 
112.6,-0.28335475 
112.7,-0.28361480 
112.8,-0.28385958 
112.9,-0.28412660 
113,-0.28441447 
113.1,-0.28469727 
113.2,-0.28496384 
113.3,-0.28521583 
113.4,-0.28548299 
113.5,-0.28576696 
113.6,-0.28604955 
113.7,-0.28631284 
113.8,-0.28656096 
113.9,-0.28682711 
114,-0.28710499 
114.1,-0.28737566 
114.2,-0.28763306 
114.3,-0.28787876 
114.4,-0.28813553 
114.5,-0.28841116 
114.6,-0.28868870 
114.7,-0.28894886 
114.8,-0.28919875 
114.9,-0.28945340 
115,-0.28972791 
115.1,-0.28998047 
115.2,-0.29022350 
115.3,-0.29046311 
115.4,-0.29070847 
115.5,-0.29097675 
115.6,-0.29125139 
115.7,-0.29151468 
115.8,-0.29177165 
115.9,-0.29202440 
116,-0.29228275 
116.1,-0.29254035 
116.2,-0.29278881 
116.3,-0.29303424 
116.4,-0.29327566 
116.5,-0.29351093 
116.6,-0.29377211 
116.7,-0.29402719 
116.8,-0.29427616 
116.9,-0.29451689 
117,-0.29475309 
117.1,-0.29500560 
117.2,-0.29525786 
117.3,-0.29552442 
117.4,-0.29577465 
117.5,-0.29600650 
117.6,-0.29625288 
117.7,-0.29651835 
117.8,-0.29678017 
117.9,-0.29704470 
118,-0.29729052 
118.1,-0.29754680 
118.2,-0.29782466 
118.3,-0.29811212 
118.4,-0.29839534 
118.5,-0.29864786 
118.6,-0.29889188 
118.7,-0.29915304 
118.8,-0.29941494 
118.9,-0.29967463 
119,-0.29992027 
119.1,-0.30017016 
119.2,-0.30042407 
119.3,-0.30066389 
119.4,-0.30088943 
119.5,-0.30113986 
119.6,-0.30135029 
119.7,-0.30156619 
119.8,-0.30183112 
119.9,-0.30209478 
120,-0.30234824 
120.1,-0.30259411 
120.2,-0.30284819 
120.3,-0.30313248 
120.4,-0.30342573 
120.5,-0.30369160 
120.6,-0.30394330 
120.7,-0.30419127 
120.8,-0.30446270 
120.9,-0.30474168 
121,-0.30500752 
121.1,-0.30526440 
121.2,-0.30552465 
121.3,-0.30580130 
121.4,-0.30608996 
121.5,-0.30636507 
121.6,-0.30663199 
121.7,-0.30689583 
121.8,-0.30716503 
121.9,-0.30744125 
122,-0.30771586 
122.1,-0.30798052 
122.2,-0.30824271 
122.3,-0.30850196 
122.4,-0.30877496 
122.5,-0.30905024 
122.6,-0.30932001 
122.7,-0.30958539 
122.8,-0.30984294 
122.9,-0.31011319 
123,-0.31038703 
123.1,-0.31063045 
123.2,-0.31087730 
123.3,-0.31111143 
123.4,-0.31136393 
123.5,-0.31162330 
123.6,-0.31187294 
123.7,-0.31212070 
123.8,-0.31235970 
123.9,-0.31262322 
124,-0.31289852 
124.1,-0.31315127 
124.2,-0.31339204 
124.3,-0.31363024 
124.4,-0.31387888 
124.5,-0.31415652 
124.6,-0.31441453 
124.7,-0.31466840 
124.8,-0.31491765 
124.9,-0.31516632 
125,-0.31545104 
125.1,-0.31571839 
125.2,-0.31595619 
125.3,-0.31619527 
125.4,-0.31643563 
125.5,-0.31670637 
125.6,-0.31697194 
125.7,-0.31722103 
125.8,-0.31746393 
125.9,-0.31771407 
126,-0.31798858 
126.1,-0.31827816 
126.2,-0.31853286 
126.3,-0.31877825 
126.4,-0.31903170 
126.5,-0.31930194 
126.6,-0.31959040 
126.7,-0.31985747 
126.8,-0.32010514 
126.9,-0.32034371 
127,-0.32060486 
127.1,-0.32088645 
127.2,-0.32115745 
127.3,-0.32140507 
127.4,-0.32164127 
127.5,-0.32188993 
127.6,-0.32216437 
127.7,-0.32243952 
127.8,-0.32268847 
127.9,-0.32291580 
128,-0.32314730 
128.1,-0.32340171 
128.2,-0.32367906 
128.3,-0.32393598 
128.4,-0.32417247 
128.5,-0.32439998 
128.6,-0.32464117 
128.7,-0.32490665 
128.8,-0.32517893 
128.9,-0.32542796 
129,-0.32566691 
129.1,-0.32590632 
129.2,-0.32616922 
129.3,-0.32645368 
129.4,-0.32672201 
129.5,-0.32695911 
129.6,-0.32719039 
129.7,-0.32743716 
129.8,-0.32770581 
129.9,-0.32797109 
130,-0.32822517 
130.1,-0.32846416 
130.2,-0.32871752 
130.3,-0.32898198 
130.4,-0.32926907 
130.5,-0.32953809 
130.6,-0.32978804 
130.7,-0.33003721 
130.8,-0.33029475 
130.9,-0.33058486 
131,-0.33086278 
131.1,-0.33112165 
131.2,-0.33136743 
131.3,-0.33161065 
131.4,-0.33188065 
131.5,-0.33215047 
131.6,-0.33240807 
131.7,-0.33264365 
131.8,-0.33287553 
131.9,-0.33311678 
132,-0.33336953 
132.1,-0.33361824 
132.2,-0.33385173 
132.3,-0.33407822 
132.4,-0.33430422 
132.5,-0.33455219 
132.6,-0.33480468 
132.7,-0.33504501 
132.8,-0.33527157 
132.9,-0.33550275 
133,-0.33573696 
133.1,-0.33599898 
133.2,-0.33625775 
133.3,-0.33650070 
133.4,-0.33674288 
133.5,-0.33697950 
133.6,-0.33723181 
133.7,-0.33749591 
133.8,-0.33773771 
133.9,-0.33797988 
134,-0.33821366 
134.1,-0.33845437 
134.2,-0.33872153 
134.3,-0.33898557 
134.4,-0.33924243 
134.5,-0.33949088 
134.6,-0.33974325 
134.7,-0.34001039 
134.8,-0.34028214 
134.9,-0.34053880 
135,-0.34080278 
135.1,-0.34106006 
135.2,-0.34133012 
135.3,-0.34162280 
135.4,-0.34190653 
135.5,-0.34217624 
135.6,-0.34244439 
135.7,-0.34271648 
135.8,-0.34298916 
135.9,-0.34324552 
136,-0.34349703 
136.1,-0.34374965 
136.2,-0.34400293 
136.3,-0.34425893 
136.4,-0.34451150 
136.5,-0.34476021 
136.6,-0.34501014 
136.7,-0.34525432 
136.8,-0.34551478 
136.9,-0.35155650 
137,-0.35199850 
137.1,-0.35244350 
137.2,-0.35291250 
137.3,-0.35339650 
137.4,-0.35391750 
137.5,-0.35444050 
137.6,-0.35499750 
137.7,-0.35557750 
137.8,-0.35619850 
137.9,-0.35685150 
138,-0.35753350 
138.1,-0.35825950 
138.2,-0.35905450 
138.3,-0.35991850 
138.4,-0.36085150 
138.5,-0.36188550 
138.6,-0.36302450 
138.7,-0.36432150 
138.8,-0.36581250 
138.9,-0.36753850 
139,-0.36956950 
139.1,-0.37201650 
139.2,-0.37503150 
139.3,-0.37892050 
139.4,-0.38412950 
139.5,-0.39152950 
139.6,-0.40299950 
139.7,-0.42344050 
139.8,-0.47086750 
139.9,-0.35329000 
